[
  {
      "resourceType": "Patient",
      "id": "erXuFYUfucBZaryVksYEcMg3",
      "extension": [
          {
              "extension": [
                  {
                      "valueCoding": {
                          "system": "urn:oid:2.16.840.1.113883.6.238",
                          "code": "2131-1",
                          "display": "Other Race"
                      },
                      "url": "detailed"
                  },
                  {
                      "valueString": "Other",
                      "url": "text"
                  }
              ],
              "url": "http://hl7.org/fhir/us/core/StructureDefinition/us-core-race"
          },
          {
              "extension": [
                  {
                      "valueString": "Unknown",
                      "url": "text"
                  }
              ],
              "url": "http://hl7.org/fhir/us/core/StructureDefinition/us-core-ethnicity"
          },
          {
              "valueCodeableConcept": {
                  "coding": [
                      {
                          "system": "urn:oid:1.2.840.114350.1.13.0.1.7.10.698084.130.657370.19999000",
                          "code": "female",
                          "display": "female"
                      }
                  ]
              },
              "url": "http://open.epic.com/FHIR/StructureDefinition/extension/legal-sex"
          },
          {
              "valueCode": "F",
              "url": "http://hl7.org/fhir/us/core/StructureDefinition/us-core-birthsex"
          }
      ],
      "identifier": [
          {
              "use": "usual",
              "type": {
                  "text": "EPIC"
              },
              "system": "urn:oid:1.2.840.114350.1.13.0.1.7.5.737384.0",
              "value": "E4007"
          },
          {
              "use": "usual",
              "type": {
                  "text": "EXTERNAL"
              },
              "system": "urn:oid:1.2.840.114350.1.13.0.1.7.2.698084",
              "value": "Z6129"
          },
          {
              "use": "usual",
              "type": {
                  "text": "FHIR"
              },
              "system": "http://open.epic.com/FHIR/StructureDefinition/patient-dstu2-fhir-id",
              "value": "TnOZ.elPXC6zcBNFMcFA7A5KZbYxo2.4T-LylRk4GoW4B"
          },
          {
              "use": "usual",
              "type": {
                  "text": "FHIR STU3"
              },
              "system": "http://open.epic.com/FHIR/StructureDefinition/patient-fhir-id",
              "value": "erXuFYUfucBZaryVksYEcMg3"
          },
          {
              "use": "usual",
              "type": {
                  "text": "INTERNAL"
              },
              "system": "urn:oid:1.2.840.114350.1.13.0.1.7.2.698084",
              "value": "     Z6129"
          },
          {
              "use": "usual",
              "type": {
                  "text": "EPI"
              },
              "system": "urn:oid:1.2.840.114350.1.13.0.1.7.5.737384.14",
              "value": "203713"
          },
          {
              "use": "usual",
              "type": {
                  "text": "MYCHARTLOGIN"
              },
              "system": "urn:oid:1.2.840.114350.1.13.0.1.7.3.878082.110",
              "value": "FHIRCAMILA"
          },
          {
              "use": "usual",
              "type": {
                  "text": "WPRINTERNAL"
              },
              "system": "urn:oid:1.2.840.114350.1.13.0.1.7.2.878082",
              "value": "736"
          }
      ],
      "active": true,
      "name": [
          {
              "use": "official",
              "text": "Camila Maria Lopez",
              "family": "Lopez",
              "given": [
                  "Camila",
                  "Maria"
              ]
          },
          {
              "use": "usual",
              "text": "Camila Maria Lopez",
              "family": "Lopez",
              "given": [
                  "Camila",
                  "Maria"
              ]
          }
      ],
      "telecom": [
          {
              "system": "phone",
              "value": "469-555-5555",
              "use": "home"
          },
          {
              "system": "phone",
              "value": "469-888-8888",
              "use": "work"
          },
          {
              "system": "email",
              "value": "knixontestemail@epic.com",
              "rank": 1
          }
      ],
      "gender": "female",
      "birthDate": "1987-09-12",
      "deceasedBoolean": false,
      "address": [
          {
              "use": "old",
              "line": [
                  "3268 West Johnson St.",
                  "Apt 117"
              ],
              "city": "GARLAND",
              "district": "DALLAS",
              "state": "TX",
              "postalCode": "75043",
              "country": "US"
          },
          {
              "use": "home",
              "line": [
                  "3268 West Johnson St.",
                  "Apt 117"
              ],
              "city": "GARLAND",
              "district": "DALLAS",
              "state": "TX",
              "postalCode": "75043",
              "country": "US",
              "period": {
                  "start": "2019-05-24"
              }
          }
      ],
      "maritalStatus": {
          "text": "Married"
      },
      "contact": [
          {
              "relationship": [
                  {
                      "coding": [
                          {
                              "system": "urn:oid:1.2.840.114350.1.13.0.1.7.4.827665.1000",
                              "code": "27",
                              "display": "Adoptive Parent"
                          }
                      ],
                      "text": "Adoptive Parent"
                  }
              ],
              "name": {
                  "use": "usual",
                  "text": "STROHBEEN,smith"
              },
              "telecom": [
                  {
                      "system": "phone",
                      "value": "608-222-9999",
                      "use": "home"
                  }
              ]
          }
      ],
      "communication": [
          {
              "language": {
                  "coding": [
                      {
                          "system": "urn:ietf:bcp:47",
                          "code": "en",
                          "display": "English"
                      }
                  ],
                  "text": "English"
              },
              "preferred": true
          }
      ],
      "generalPractitioner": [
          {
              "reference": "Practitioner/eM5CWtq15N0WJeuCet5bJlQ3",
              "type": "Practitioner",
              "display": "Physician"
          }
      ],
      "managingOrganization": {
          "reference": "Organization/enRyWnSP963FYDpoks4NHOA3",
          "display": "EHS Service Area"
      }
  },
  {
      "resourceType": "Bundle",
      "type": "searchset",
      "total": 1,
      "link": [
          {
              "relation": "self",
              "url": "https://fhir.epic.com/interconnect-fhir-oauth/api/FHIR/R4/Observation?category=laboratory&limit=50&subject=erXuFYUfucBZaryVksYEcMg3"
          }
      ],
      "entry": [
          {
              "link": [
                  {
                      "relation": "self",
                      "url": "https://fhir.epic.com/interconnect-fhir-oauth/api/FHIR/R4/Observation/eyPMWgv2u2RUfsV4p1lLKuUtqyPs2-QNi2zKvbTsFYtRByc6B.cSi1iVU5V2HOpX23"
                  }
              ],
              "fullUrl": "https://fhir.epic.com/interconnect-fhir-oauth/api/FHIR/R4/Observation/eyPMWgv2u2RUfsV4p1lLKuUtqyPs2-QNi2zKvbTsFYtRByc6B.cSi1iVU5V2HOpX23",
              "resource": {
                  "resourceType": "Observation",
                  "id": "eyPMWgv2u2RUfsV4p1lLKuUtqyPs2-QNi2zKvbTsFYtRByc6B.cSi1iVU5V2HOpX23",
                  "basedOn": [
                      {
                          "reference": "ServiceRequest/egf4KkhXmgeVWImXEEYH.CEE1ZgJG5SQy2vBX1HgvBCs3",
                          "display": "HEMOGLOBIN A1C"
                      }
                  ],
                  "status": "final",
                  "category": [
                      {
                          "coding": [
                              {
                                  "system": "http://terminology.hl7.org/CodeSystem/observation-category",
                                  "code": "laboratory",
                                  "display": "Laboratory"
                              }
                          ],
                          "text": "Laboratory"
                      },
                      {
                          "coding": [
                              {
                                  "system": "urn:oid:1.2.840.114350.1.13.0.1.7.10.798268.30",
                                  "code": "Lab",
                                  "display": "Lab"
                              }
                          ],
                          "text": "Lab"
                      }
                  ],
                  "code": {
                      "coding": [
                          {
                              "system": "http://loinc.org",
                              "code": "4548-4",
                              "display": "Hemoglobin A1c/Hemoglobin.total in Blood"
                          },
                          {
                              "system": "urn:oid:1.2.840.114350.1.13.0.1.7.2.768282",
                              "code": "1558024",
                              "display": "Hemoglobin A1C"
                          }
                      ],
                      "text": "Hemoglobin A1C"
                  },
                  "subject": {
                      "reference": "Patient/erXuFYUfucBZaryVksYEcMg3",
                      "display": "Lopez, Camila Maria"
                  },
                  "encounter": {
                      "reference": "Encounter/elMz2mwjsRvKnZiR.0ceTUg3",
                      "identifier": {
                          "use": "usual",
                          "system": "urn:oid:1.2.840.114350.1.13.0.1.7.3.698084.8",
                          "value": "27558"
                      },
                      "display": "Office Visit"
                  },
                  "effectiveDateTime": "2019-05-28T14:22:00Z",
                  "issued": "2019-05-28T14:22:41Z",
                  "valueQuantity": {
                      "value": 5.1
                  },
                  "specimen": {
                      "reference": "Specimen/e.n21kE9PMQ94vOo1lkT2XkN1av86guPxYsFU20qTQ1M3",
                      "display": "Specimen"
                  }
              },
              "search": {
                  "mode": "match"
              }
          },
          {
              "fullUrl": "urn:uuid:00000000-0007-49e2-746e-3f687d642f98",
              "resource": {
                  "resourceType": "OperationOutcome",
                  "issue": [
                      {
                          "severity": "information",
                          "code": "invalid",
                          "details": {
                              "coding": [
                                  {
                                      "system": "urn:oid:1.2.840.114350.1.13.0.1.7.2.657369",
                                      "code": "59100",
                                      "display": "Content invalid against the specification or a profile."
                                  }
                              ],
                              "text": "Content invalid against the specification or a profile."
                          },
                          "diagnostics": "Unknown parameter: LIMIT. Parameter has been ignored."
                      },
                      {
                          "severity": "warning",
                          "code": "processing",
                          "details": {
                              "coding": [
                                  {
                                      "system": "urn:oid:1.2.840.114350.1.13.0.1.7.2.657369",
                                      "code": "4119",
                                      "display": "This response includes information available to the authorized user at the time of the request. It may not contain the entire record available in the system."
                                  }
                              ],
                              "text": "This response includes information available to the authorized user at the time of the request. It may not contain the entire record available in the system."
                          }
                      }
                  ]
              },
              "search": {
                  "mode": "outcome"
              }
          }
      ]
  },
  {
      "resourceType": "Bundle",
      "type": "searchset",
      "total": 1,
      "link": [
          {
              "relation": "self",
              "url": "https://fhir.epic.com/interconnect-fhir-oauth/api/FHIR/R4/DiagnosticReport?patient=erXuFYUfucBZaryVksYEcMg3"
          }
      ],
      "entry": [
          {
              "link": [
                  {
                      "relation": "self",
                      "url": "https://fhir.epic.com/interconnect-fhir-oauth/api/FHIR/R4/DiagnosticReport/ebLG6RMUaZyb2xk2DuX.kd4g8mNRffn9ftcwqSmnhrwM3"
                  }
              ],
              "fullUrl": "https://fhir.epic.com/interconnect-fhir-oauth/api/FHIR/R4/DiagnosticReport/ebLG6RMUaZyb2xk2DuX.kd4g8mNRffn9ftcwqSmnhrwM3",
              "resource": {
                  "resourceType": "DiagnosticReport",
                  "id": "ebLG6RMUaZyb2xk2DuX.kd4g8mNRffn9ftcwqSmnhrwM3",
                  "identifier": [
                      {
                          "use": "official",
                          "type": {
                              "coding": [
                                  {
                                      "system": "http://terminology.hl7.org/CodeSystem/v2-0203",
                                      "code": "PLAC",
                                      "display": "Placer Identifier"
                                  }
                              ],
                              "text": "Placer Identifier"
                          },
                          "system": "urn:oid:1.2.840.114350.1.13.0.1.7.2.798268",
                          "value": "1066905"
                      }
                  ],
                  "basedOn": [
                      {
                          "reference": "ServiceRequest/egf4KkhXmgeVWImXEEYH.CEE1ZgJG5SQy2vBX1HgvBCs3",
                          "type": "ServiceRequest"
                      }
                  ],
                  "status": "final",
                  "category": [
                      {
                          "coding": [
                              {
                                  "system": "urn:oid:1.2.840.114350.1.13.0.1.7.10.798268.30",
                                  "code": "Lab"
                              }
                          ],
                          "text": "Lab"
                      },
                      {
                          "coding": [
                              {
                                  "system": "http://terminology.hl7.org/CodeSystem/v2-0074",
                                  "code": "LAB",
                                  "display": "Laboratory"
                              }
                          ],
                          "text": "Laboratory"
                      }
                  ],
                  "code": {
                      "coding": [
                          {
                              "system": "http://loinc.org",
                              "code": "4548-4"
                          },
                          {
                              "system": "urn:oid:2.16.840.1.113883.6.12",
                              "code": "83036",
                              "display": "PR GLYCOSYLATED HEMOGLOBIN TEST"
                          },
                          {
                              "system": "urn:oid:2.16.840.1.113883.6.96",
                              "code": "43396009",
                              "display": "HEMOGLOBIN A1C"
                          }
                      ],
                      "text": "Hemoglobin A1c"
                  },
                  "subject": {
                      "reference": "Patient/erXuFYUfucBZaryVksYEcMg3",
                      "display": "Lopez, Camila Maria"
                  },
                  "encounter": {
                      "reference": "Encounter/elMz2mwjsRvKnZiR.0ceTUg3",
                      "identifier": {
                          "use": "usual",
                          "system": "urn:oid:1.2.840.114350.1.13.0.1.7.3.698084.8",
                          "value": "27558"
                      },
                      "display": "Office Visit"
                  },
                  "effectiveDateTime": "2019-05-28T14:22:00Z",
                  "issued": "2019-05-28T14:22:00Z",
                  "performer": [
                      {
                          "reference": "Practitioner/eM5CWtq15N0WJeuCet5bJlQ3",
                          "type": "Practitioner",
                          "display": "Physician"
                      }
                  ],
                  "result": [
                      {
                          "reference": "Observation/eyPMWgv2u2RUfsV4p1lLKuUtqyPs2-QNi2zKvbTsFYtRByc6B.cSi1iVU5V2HOpX23",
                          "display": "Component (1): HEMOGLOBIN A1C, POC"
                      }
                  ]
              },
              "search": {
                  "mode": "match"
              }
          },
          {
              "fullUrl": "urn:uuid:00000000-0007-49e3-746e-3f687d642f98",
              "resource": {
                  "resourceType": "OperationOutcome",
                  "issue": [
                      {
                          "severity": "warning",
                          "code": "processing",
                          "details": {
                              "coding": [
                                  {
                                      "system": "urn:oid:1.2.840.114350.1.13.0.1.7.2.657369",
                                      "code": "4119",
                                      "display": "This response includes information available to the authorized user at the time of the request. It may not contain the entire record available in the system."
                                  }
                              ],
                              "text": "This response includes information available to the authorized user at the time of the request. It may not contain the entire record available in the system."
                          }
                      }
                  ]
              },
              "search": {
                  "mode": "outcome"
              }
          }
      ]
  },
  {
      "resourceType": "Bundle",
      "type": "searchset",
      "total": 1,
      "link": [
          {
              "relation": "self",
              "url": "https://fhir.epic.com/interconnect-fhir-oauth/api/FHIR/R4/Procedure?patient=erXuFYUfucBZaryVksYEcMg3"
          }
      ],
      "entry": [
          {
              "link": [
                  {
                      "relation": "self",
                      "url": "https://fhir.epic.com/interconnect-fhir-oauth/api/FHIR/R4/Procedure/erEBHGDUVjpj2LMlgw4H833A2b9vU9AE5jfzOJYbc3xfvM.1z44YUmx4Da-Jr73SY3"
                  }
              ],
              "fullUrl": "https://fhir.epic.com/interconnect-fhir-oauth/api/FHIR/R4/Procedure/erEBHGDUVjpj2LMlgw4H833A2b9vU9AE5jfzOJYbc3xfvM.1z44YUmx4Da-Jr73SY3",
              "resource": {
                  "resourceType": "Procedure",
                  "id": "erEBHGDUVjpj2LMlgw4H833A2b9vU9AE5jfzOJYbc3xfvM.1z44YUmx4Da-Jr73SY3",
                  "identifier": [
                      {
                          "use": "usual",
                          "type": {
                              "text": "ORL"
                          },
                          "system": "urn:oid:1.2.840.114350.1.13.0.1.7.2.798276",
                          "value": "1508"
                      },
                      {
                          "use": "usual",
                          "type": {
                              "text": "EAP"
                          },
                          "system": "urn:oid:1.2.840.114350.1.13.0.1.7.2.696580",
                          "value": "14493"
                      },
                      {
                          "use": "usual",
                          "type": {
                              "text": "OPE"
                          },
                          "system": "urn:oid:1.2.840.114350.1.13.0.1.7.2.798069",
                          "value": "91"
                      }
                  ],
                  "status": "completed",
                  "category": {
                      "coding": [
                          {
                              "system": "http://snomed.info/sct",
                              "code": "387713003",
                              "display": "Surgical procedure"
                          }
                      ],
                      "text": "Surgical Procedures"
                  },
                  "code": {
                      "coding": [
                          {
                              "system": "http://www.ama-assn.org/go/cpt",
                              "code": "44950",
                              "display": "PR APPENDECTOMY"
                          }
                      ],
                      "text": "Removal of appendix (APPENDECTOMY)"
                  },
                  "subject": {
                      "reference": "Patient/erXuFYUfucBZaryVksYEcMg3",
                      "display": "Lopez, Camila Maria"
                  },
                  "encounter": {
                      "reference": "Encounter/ezEPsTnEC6uqMcwc7Ng4j8g3",
                      "identifier": {
                          "use": "usual",
                          "system": "urn:oid:1.2.840.114350.1.13.0.1.7.3.698084.8",
                          "value": "13092"
                      },
                      "display": "Surgery"
                  },
                  "performedPeriod": {
                      "start": "2023-05-09T14:51:00Z",
                      "end": "2023-05-09T15:25:00Z"
                  },
                  "recorder": {
                      "reference": "Practitioner/eL8b0uORHjuBrZYhOgk0Abw3",
                      "type": "Practitioner",
                      "display": "Admin O"
                  },
                  "location": {
                      "reference": "Location/el.Nc4rfzXa7Ml9v6gin1Pw3",
                      "display": "EHS Hospital"
                  },
                  "bodySite": [
                      {
                          "extension": [
                              {
                                  "valueCodeableConcept": {
                                      "coding": [
                                          {
                                              "system": "urn:oid:1.2.840.114350.1.13.0.1.7.4.798276.2010",
                                              "code": "4",
                                              "display": "N/A"
                                          }
                                      ],
                                      "text": "N/A"
                                  },
                                  "url": "http://nictiz.nl/fhir/StructureDefinition/BodySite-Qualifier"
                              }
                          ],
                          "coding": [
                              {
                                  "system": "urn:oid:1.2.840.114350.1.13.0.1.7.4.798276.2015",
                                  "code": "10",
                                  "display": "Abdomen"
                              }
                          ],
                          "text": "Abdomen"
                      }
                  ],
                  "report": [
                      {
                          "reference": "DocumentReference/eUk0tDZT6XCJ6nxssVHpVbF4kWq.80ThJ1ngLy0VUyGA3",
                          "type": "DocumentReference"
                      }
                  ]
              },
              "search": {
                  "mode": "match"
              }
          },
          {
              "fullUrl": "urn:uuid:00000000-0007-49e4-746e-3f687d642f98",
              "resource": {
                  "resourceType": "OperationOutcome",
                  "issue": [
                      {
                          "severity": "warning",
                          "code": "suppressed",
                          "details": {
                              "coding": [
                                  {
                                      "system": "urn:oid:1.2.840.114350.1.13.0.1.7.2.657369",
                                      "code": "59204",
                                      "display": "The authenticated client's search request applies to a sub-resource that the client is not authorized for. Results of this sub-type will not be returned."
                                  }
                              ],
                              "text": "The authenticated client's search request applies to a sub-resource that the client is not authorized for. Results of this sub-type will not be returned."
                          },
                          "diagnostics": "Client not authorized for Procedure - Patient-Reported Surgical History. Search results of this type have not been included."
                      },
                      {
                          "severity": "warning",
                          "code": "suppressed",
                          "details": {
                              "coding": [
                                  {
                                      "system": "urn:oid:1.2.840.114350.1.13.0.1.7.2.657369",
                                      "code": "59204",
                                      "display": "The authenticated client's search request applies to a sub-resource that the client is not authorized for. Results of this sub-type will not be returned."
                                  }
                              ],
                              "text": "The authenticated client's search request applies to a sub-resource that the client is not authorized for. Results of this sub-type will not be returned."
                          },
                          "diagnostics": "Client not authorized for Procedure - Order Procedure. Search results of this type have not been included."
                      },
                      {
                          "severity": "warning",
                          "code": "processing",
                          "details": {
                              "coding": [
                                  {
                                      "system": "urn:oid:1.2.840.114350.1.13.0.1.7.2.657369",
                                      "code": "4119",
                                      "display": "This response includes information available to the authorized user at the time of the request. It may not contain the entire record available in the system."
                                  }
                              ],
                              "text": "This response includes information available to the authorized user at the time of the request. It may not contain the entire record available in the system."
                          }
                      }
                  ]
              },
              "search": {
                  "mode": "outcome"
              }
          }
      ]
  }
]